ax,ay,az,gx,gy,gz
10560,-15860,3160,-46,-960,527
10460,-16224,3108,-61,-978,553
10496,-15772,3128,-65,-972,550
10404,-15544,3212,-56,-1010,509
10532,-15748,3132,-70,-966,568
10444,-15756,3216,-72,-947,557
10480,-15756,3112,-55,-953,547
10472,-16156,3008,-62,-996,532
10560,-15988,3104,-56,-997,539
10504,-16172,3036,-41,-968,536
10488,-16056,3168,-66,-996,552
10572,-15904,3144,-42,-977,561
10584,-16224,3064,-94,-834,530
10484,-16068,3152,-71,-915,560
10692,-15548,3144,-35,-887,554
10404,-15872,3084,-38,-1016,549
10524,-15824,3228,-47,-964,534
10492,-15620,3292,-34,-970,571
10536,-15716,3312,-50,-977,544
10400,-16136,3232,-63,-983,545
10408,-15948,3108,-58,-995,550
10424,-16080,2972,-24,-1002,503
10448,-16024,3108,-36,-978,568
10512,-15864,3044,-53,-963,550
10452,-16128,3268,-68,-987,536
10440,-15800,3204,-55,-992,538
10512,-16184,3172,-50,-990,537
10524,-16076,3100,-66,-978,565
10480,-15864,3196,-63,-989,549
10484,-15808,3124,-36,-960,531
10512,-15588,3256,-37,-984,538
10428,-15788,3240,-66,-977,517
10496,-15892,3224,-51,-987,538
10424,-15856,3160,-22,-963,528
10476,-15812,3092,-73,-977,533
10384,-15748,3144,-66,-972,521
10416,-15860,3100,-51,-993,524
10544,-15736,3168,-39,-983,547
10488,-15928,3120,-40,-971,543
10444,-15548,3324,-46,-952,526
10472,-15508,3252,-42,-974,562
10540,-15784,3144,-68,-964,546
10464,-15984,3104,-56,-978,533
10392,-15920,3112,-43,-982,546
10448,-15964,3160,-58,-971,551
10460,-15980,3108,-65,-981,578
10392,-16000,3080,-47,-988,547
10512,-15724,3160,-37,-942,546
10444,-15640,3212,-54,-983,545
10428,-15760,3204,-60,-953,585
10452,-15816,3216,-56,-982,560
10452,-15908,3084,-54,-975,528
10480,-15828,3136,-64,-1010,562
10492,-15924,3080,-53,-962,569
10576,-15796,3132,-62,-976,523
10516,-15900,3200,-53,-995,536
10564,-15844,3124,-67,-964,546
10508,-15940,3212,-22,-996,519
10568,-15808,3048,-52,-974,558
10588,-15864,3124,-56,-957,532
10436,-16036,3052,-62,-980,549
10460,-15788,3172,-45,-970,550
10472,-15668,3140,-69,-1010,496
10560,-15972,3160,-56,-977,573
10388,-16096,3120,-54,-980,546
10548,-16004,3152,-50,-942,532
10420,-15820,3088,-44,-906,536
10440,-15772,3348,-56,-1002,516
10508,-15932,3152,-51,-944,536
10476,-15636,3284,-72,-968,539
10480,-16052,3076,-50,-957,543
10480,-15924,3136,-72,-927,575
10408,-16228,3032,-64,-920,562
10452,-15828,3208,-58,-926,545
10460,-15808,3176,-54,-1069,565
10492,-15832,3228,-62,-963,556
10496,-15864,3064,-16,-1094,540
10352,-16100,3152,-54,-1036,540
10512,-15748,3068,-131,-792,553
10424,-15992,3100,-79,-1011,559
10460,-15912,3168,-45,-1003,565
10464,-16160,3112,-46,-1114,577
10488,-15536,3100,-6,-887,533
10528,-15916,3160,21,-971,538
10528,-15932,3120,-69,-1084,550
10392,-15716,3116,-59,-1048,541
10372,-15952,3024,-63,-897,512
10384,-15948,3144,-37,-1051,557
10792,-15804,3076,-95,-946,568
10412,-15848,2968,-30,-933,528
10404,-16228,3152,-118,-783,546
10452,-15728,3204,-51,-913,548
10480,-15644,3136,-60,-1004,554
10568,-15312,3156,98,-1396,550
10300,-15924,3132,-21,-1014,556
10600,-16012,3144,-72,-812,537
10292,-16152,3088,-3,-877,524
10396,-15876,3044,1,-1036,554
10644,-16244,3148,-44,-931,550
10588,-16220,3048,-117,-911,540
10344,-15764,3120,-41,-994,546
10492,-16136,3008,-13,-976,539
10396,-15724,3264,-118,-1018,546
10552,-15888,3200,-49,-1020,567
10460,-15912,3200,-80,-1007,563
10564,-15784,3136,-43,-1088,557
10608,-15940,3096,-55,-971,550
10428,-15660,3212,-20,-1122,546
10424,-16316,3060,-45,-1042,559
10432,-15584,3128,-77,-1059,561
10420,-15864,3124,-43,-1012,538
10416,-15740,3084,-40,-876,570
10496,-15844,3024,-13,-1064,575
10588,-15916,3208,-25,-1043,557
10480,-15988,3060,-39,-1012,543
10396,-15852,3144,-64,-990,515
10508,-15980,3088,-69,-973,537
10484,-15804,3180,-54,-952,548
10452,-15884,3196,-62,-963,545
10436,-16168,3100,-55,-921,559
10496,-16148,3124,-44,-975,556
10504,-16152,3144,-55,-973,556
10468,-16172,3060,-66,-978,544
10392,-15916,3076,-33,-958,558
10432,-15856,3180,-53,-1008,558
10436,-15596,3312,-38,-976,556
10480,-15908,3120,-35,-973,562
10520,-15776,3208,-39,-987,533
10524,-16024,3084,-52,-961,556
10448,-16016,3124,-76,-987,584
10564,-15796,3096,-45,-1005,527
10548,-15916,3044,-79,-963,541
10544,-16216,3084,-57,-965,559
10580,-15492,3360,-46,-1004,555
10420,-15912,3160,-54,-993,534
10492,-16272,3052,-26,-961,537
10492,-15940,3052,-51,-942,517
10520,-15716,3196,-34,-932,526
10520,-16272,2956,-60,-984,522
10372,-15960,3140,-49,-941,551
10056,-15484,3284,-233,-834,593
10620,-15680,3160,-60,-1039,573
10412,-16036,3080,-32,-1007,537
10360,-15884,3228,-37,-978,530
10540,-15588,3316,-54,-990,544
10576,-15728,3108,-17,-1057,534
10664,-15732,2628,363,238,565
10304,-15912,3364,-61,-1136,552
10964,-14988,3016,-184,468,527
10476,-15976,3212,57,-1073,557
10296,-16624,3176,-530,-1848,542
11616,-14404,3344,-534,-3982,534
11372,-15812,3116,138,-545,536
10844,-15072,3140,1176,-2655,535
10520,-15268,2984,-2,-1877,552
10344,-16656,2900,-1272,-79,558
9840,-16472,3220,62,1290,539
11216,-13052,2824,411,-4032,551
10400,-15616,3404,-2,-958,566
10560,-15852,3056,15,-1123,549
10956,-17524,2764,-179,-2727,553
10260,-15996,3292,-76,-1048,558
10544,-15644,3228,-5,-966,533
10516,-15860,3192,-55,-983,546
10452,-15576,3168,-55,-996,549
10560,-15776,3160,-68,-978,564
10580,-15744,3196,-66,-991,525
10464,-15724,3196,-44,-964,530
10516,-16056,3048,-45,-957,535
10460,-15932,3144,-55,-989,577
10556,-15748,3244,-54,-966,518
10500,-15852,3156,-54,-953,544
10532,-15852,3188,-50,-955,524
10476,-15728,3180,-54,-1000,571
10464,-15768,3108,-30,-938,574
10480,-15684,3056,-63,-988,572
10428,-15800,3096,-54,-942,545
10416,-15808,3160,-56,-969,531
10512,-15592,3168,-40,-840,525
10528,-15636,3088,-41,-949,547
10384,-15596,3164,-49,-1004,535
10352,-15600,3224,-42,-973,536
10488,-16004,3036,-41,-978,525
10444,-15676,3300,-50,-976,565
10472,-15692,3128,-47,-968,559
10540,-15820,3104,-56,-970,571
10388,-15864,3044,-47,-964,547
10512,-15824,3196,-60,-968,546
10400,-15608,3180,-68,-991,532
10508,-15604,3100,-48,-959,556
10644,-15876,3044,-44,-989,529
10484,-15732,3044,-29,-980,553
10460,-15796,3200,-49,-977,567
10452,-15860,3156,-43,-980,556
10484,-15856,3088,-49,-951,529
10360,-15888,3008,-61,-965,581
10512,-15820,3088,-48,-961,533
10396,-15604,3296,-46,-971,550
10504,-16036,3020,-50,-965,544
10436,-15828,3076,-41,-985,535
10468,-15772,3180,-40,-968,550
10488,-15660,3136,-38,-958,553
10456,-15924,3112,-64,-987,576
10436,-15716,3080,-30,-965,555
ax,ay,az,gx,gy,gz
10528,-15636,3116,-52,-967,529
10524,-15800,3088,-62,-983,546
10504,-15564,3048,-44,-959,536
10524,-15808,3008,-47,-955,577
10600,-15648,3232,-69,-953,563
10440,-15752,3160,-48,-989,548
10504,-15788,3024,-51,-961,564
10304,-15632,3176,-51,-954,540
10396,-15800,3112,-40,-957,531
10472,-15712,3148,-58,-981,549
10432,-15636,3212,-50,-959,559
10424,-15640,3124,-40,-984,536
10452,-15740,3164,-62,-983,554
10472,-15728,3008,-43,-958,509
10512,-15616,3200,-53,-996,565
10456,-15928,3096,-52,-980,548
10492,-15728,3084,-32,-943,547
10480,-15952,3128,-50,-998,552
10460,-15684,3224,-60,-1000,546
10452,-15824,3128,-40,-968,530
10408,-15884,3012,-25,-975,588
10376,-15968,3076,-11,-979,515
10436,-15928,2976,-50,-966,552
10468,-15736,3204,-38,-981,545
10444,-15592,3136,-76,-988,538
10488,-15712,3088,-39,-961,542
10440,-15972,3012,-59,-988,522
10452,-15716,3196,-52,-970,534
10524,-15892,3116,-45,-974,557
10392,-15888,3012,-31,-982,532
10528,-15776,3104,-78,-972,575
10444,-15828,2912,-72,-975,541
10496,-15696,3172,-52,-959,541
10484,-15796,3072,-44,-978,518
10508,-15768,3136,-56,-981,531
10432,-15756,3140,-53,-941,550
10524,-15876,3196,-50,-964,533
10580,-15696,3092,-68,-976,533
10496,-15836,3168,-53,-948,597
10480,-15612,3132,-52,-963,570
10412,-15780,3020,-45,-966,546
10444,-15700,3184,-53,-961,560
10524,-16192,3008,-48,-979,553
10372,-15904,2972,-62,-971,546
10428,-16064,3128,-67,-975,543
10488,-16032,3148,-47,-959,544
10504,-15540,3168,-62,-979,537
10436,-16064,3000,-80,-1013,565
10492,-15908,3000,-63,-906,522
10432,-15584,3240,-36,-986,540
10488,-15680,3204,-30,-1004,526
10456,-15808,3288,-65,-976,567
10380,-15792,3132,-46,-1097,554
10568,-15952,3076,-33,-1116,559
10548,-15924,3016,-50,-963,542
10408,-15992,3028,-51,-963,559
10436,-15992,3028,-48,-979,526
10476,-15692,3024,-59,-960,534
10512,-15804,3168,-34,-978,536
10340,-16012,3080,-38,-979,515
10488,-15648,3096,-30,-1001,540
10416,-15820,3148,-32,-991,561
10456,-15556,3160,-58,-965,581
10352,-15852,3060,-51,-973,538
10452,-15988,3108,-46,-952,552
10512,-15876,3060,-43,-948,525
10372,-15656,3204,-43,-979,569
10512,-15756,3120,-81,-984,557
10508,-15876,3048,-46,-1000,556
10392,-15940,3016,-51,-934,545
10476,-15812,3160,-44,-1011,530
10468,-15616,3208,-64,-987,548
10488,-15988,3164,-94,-980,569
10512,-15664,3096,-47,-985,562
10520,-15972,3160,-37,-973,553
10468,-15856,3044,-46,-959,547
10508,-15788,3180,-50,-950,551
10508,-15816,3104,-58,-947,560
10512,-15688,3192,-39,-947,564
10492,-15568,3268,-43,-995,559
10376,-15880,3224,-72,-874,521
10460,-15972,3148,-57,-947,550
10456,-15672,3208,-81,-1064,533
10312,-15764,3244,-22,-1053,567
10488,-16032,3052,-53,-871,527
10408,-16116,3280,-54,-958,567
10492,-15732,3132,-56,-910,552
10536,-16048,3036,-46,-965,545
10508,-15968,3144,-67,-968,539
10388,-15520,3232,-18,-988,567
10560,-15892,3200,-27,-1009,553
10424,-15840,3052,-64,-946,543
10464,-15592,3156,-30,-874,536
10532,-15508,3296,-73,-942,536
10424,-15844,3060,-55,-963,561
10408,-15836,3176,-44,-921,542
10488,-15680,3184,-46,-963,506
10380,-15804,3080,-69,-913,539
10460,-15732,3212,-17,-969,551
10392,-15836,3176,-67,-896,542
10440,-15752,3124,-54,-978,537
10448,-15408,3276,-40,-944,559
10432,-15748,3076,-39,-951,541
10444,-16108,3028,-41,-986,544
ax,ay,az,gx,gy,gz
10388,-16096,3004,-70,-952,547
10404,-15660,3128,-42,-977,541
10532,-15740,3088,-46,-965,584
10460,-15592,3172,-53,-978,530
10448,-15648,3120,-15,-978,519
10464,-15752,3140,-32,-984,528
10528,-15932,3068,-59,-960,544
10420,-15608,3204,-41,-956,572
10444,-15488,3180,-71,-980,540
10416,-16132,3064,-59,-975,517
10368,-15948,3192,-50,-991,564
10432,-15868,3004,-67,-969,542
10492,-15732,3216,-65,-968,545
10416,-16120,3008,-55,-967,542
10456,-15856,3052,-38,-969,549
10412,-15972,3128,-80,-1010,539
10444,-15908,3060,-47,-980,541
10408,-15644,3236,-51,-961,538
10332,-15876,3184,-64,-953,561
10364,-16008,3012,-42,-939,539
ax,ay,az,gx,gy,gz
ax,ay,az,gx,gy,gz
10416,-15692,3176,-48,-982,550
10432,-15736,3196,-33,-973,550
10396,-15604,3164,-56,-969,554
10408,-15648,3060,-75,-970,559
10456,-15588,3168,-59,-973,578
10520,-15876,3184,-69,-954,575
10380,-15804,3128,-43,-973,553
10440,-15784,3044,-57,-993,544
10376,-15428,3160,-52,-964,548
10456,-16048,3004,-62,-967,548
10464,-15588,3096,-76,-971,556
10388,-15824,3208,-73,-968,545
10428,-15800,3072,-59,-964,534
10360,-15804,3268,-55,-970,568
10484,-15644,3164,-31,-987,539
10368,-15724,3180,-59,-984,502
10368,-15888,3124,-67,-976,530
10380,-15708,3120,-48,-967,535
10500,-15804,3108,-69,-951,529
10428,-15760,3104,-53,-983,556
10376,-15728,3140,-59,-975,516
10428,-15676,3132,-36,-1059,572
10348,-16032,3024,-74,-995,580
10480,-15692,3232,-71,-988,536
10416,-15884,3132,-61,-951,527
10420,-15800,3148,-53,-971,545
10284,-15388,3248,-109,-1043,568
9964,-15608,3268,-88,-1235,516
11800,-17108,2320,-788,3033,543
10336,-15508,3020,-38,-764,525
10524,-15580,3136,-59,-766,544
10544,-15800,3072,-141,-909,519
10488,-15736,3076,-120,-994,539
10232,-16520,3204,47,-1989,569
10660,-15852,3280,-384,-1378,544
10512,-15852,3052,-157,-812,528
10224,-16180,3120,-378,-1046,539
10324,-15400,3180,-194,-966,530
10696,-15424,3072,202,-910,520
10308,-15720,3208,-46,-980,544
10256,-15984,3120,-24,-841,535
10188,-16400,3192,25,-823,549
10216,-15880,3340,-93,-1015,571
10384,-15888,2940,-67,-998,537
10212,-15300,3220,-20,-361,544
10512,-15540,3288,-40,-925,555
10400,-15920,3044,-55,-958,560
10380,-15784,3052,-64,-938,579
10392,-15708,3068,-64,-988,547
10472,-15732,3204,-95,-991,534
10444,-16232,3032,24,-759,561
10224,-15892,3152,125,-1181,539
10292,-15748,3004,-70,-933,559
10364,-15664,3176,-50,-981,533
10400,-15800,3096,-78,-923,555
10404,-15924,2980,-50,-815,543
10296,-15580,3160,-83,-947,549
10496,-15508,3076,-69,-1033,545
10428,-15620,3124,-49,-963,547
10276,-15808,3180,-54,-957,534
10388,-15712,3128,-54,-998,549
ax,ay,az,gx,gy,gz
10348,-15616,3144,-53,-1010,519
10364,-15488,3040,-10,-1093,558
10380,-15736,2972,-55,-971,545
10444,-15760,3096,-83,-987,545
10436,-15648,3140,-33,-938,548
10408,-15840,3124,-52,-967,551
10352,-15736,3200,-50,-1000,504
10384,-15648,3224,-26,-947,551
10380,-15916,3080,-54,-954,559
10344,-15680,3260,-79,-967,526
10360,-15784,3044,-56,-980,558
10380,-15724,3044,-59,-1021,545
10336,-15624,3036,-62,-962,566
10380,-15788,3040,-53,-968,579
10464,-15716,3140,-67,-972,554
10260,-15660,3260,-201,-440,553
10316,-15880,3220,-62,-971,543
10332,-15920,3160,-192,-913,517
10284,-15520,3176,-3,-1213,534
10476,-16032,3088,-64,-1068,556
10376,-15480,3084,-44,-1434,584
ax,ay,az,gx,gy,gz
9048,-14980,3260,-35,-985,542
9168,-15284,3308,-49,-955,556
9160,-15400,3124,-53,-986,546
9188,-15120,3160,-44,-989,523
9128,-15252,3240,-61,-956,551
9136,-15360,3056,-37,-977,518
9252,-15452,3052,-63,-1022,544
9092,-14988,3284,-65,-973,562
9020,-15184,3216,-46,-946,536
9244,-15184,3180,-85,-976,541
9300,-15044,3220,-51,-988,536
9128,-15060,3176,-53,-959,557
9244,-15264,3176,-50,-944,569
9228,-15200,3236,-62,-1001,575
9196,-15152,3280,-46,-984,545
9188,-15428,3148,-56,-962,523
9200,-15076,3256,-35,-961,577
9064,-15232,3228,-54,-956,552
9096,-15328,3072,-63,-973,539
9168,-15216,3124,-60,-971,556
9192,-15260,3244,-54,-977,554
9264,-15424,3132,-70,-992,550
9236,-15216,3236,-50,-996,531
9096,-15288,3220,-55,-964,529
9184,-15240,3204,-40,-981,537
9224,-15124,3296,-54,-972,530
9252,-15236,3188,-60,-964,527
9136,-14952,3268,-34,-990,546
9144,-15288,3280,-57,-965,528
9168,-15216,3148,-57,-955,560
9184,-15180,3256,-67,-957,590
9204,-15160,3172,-44,-967,546
9172,-15164,3188,-58,-975,545
9244,-15308,3152,-61,-953,535
9264,-14896,3128,-51,-919,541
9164,-15148,3164,-54,-934,570
9148,-15260,3156,-46,-976,550
9028,-15052,3280,-70,-982,555
9220,-15352,3104,-65,-994,556
9220,-15316,3152,-63,-970,549
9168,-15052,3332,-50,-956,539
9084,-15072,3400,-53,-971,565
9240,-15332,3100,-40,-957,549
9224,-15152,3168,-64,-969,562
9132,-15324,3108,-51,-983,552
9180,-15172,3128,-42,-972,525
9152,-15436,3072,-54,-980,558
9104,-15244,3152,-70,-969,527
9228,-15108,3352,-60,-965,530
9272,-15160,3228,-63,-969,554
9124,-15300,3220,-39,-944,536
9192,-15368,3092,-39,-988,542
9184,-15024,3192,-57,-964,542
9288,-15376,3220,-32,-951,534
9236,-15352,3216,-59,-1006,552
9132,-15352,3136,-67,-949,542
9212,-15076,3260,-39,-912,546
9352,-15336,3208,-66,-996,526
9148,-15420,3148,-67,-1010,545
9392,-15228,3132,32,-826,566
9256,-15236,3156,-48,-925,560
9096,-15324,3128,-82,-1017,564
9380,-15364,2948,-55,-1400,507
9796,-14952,2684,303,1327,554
9276,-15236,3340,-163,-2423,542
9488,-15208,3052,88,-336,533
9236,-15156,3088,-95,-632,535
9272,-14728,3192,-275,-1237,522
9616,-14768,3160,-75,-1156,561
9564,-15016,3120,-52,-555,558
9316,-15084,3044,-39,-798,556
9292,-15036,3180,-55,-908,537
9224,-15128,3236,-36,-1008,536
8900,-15492,3256,112,-773,577
8896,-14672,3356,44,-1302,554
9044,-15172,3280,-55,-535,554
9368,-14996,3244,-29,-6,536
8536,-17680,3424,-924,-104,524
9088,-15908,3180,147,-8,523
9264,-15344,3212,-46,-988,569
9212,-12952,3096,183,-998,534
9128,-15664,3152,-2,-1284,564
9272,-15520,3164,-22,-966,543
7264,-19164,4500,-1641,-7271,542
9236,-15360,3148,-36,-1001,510
9156,-13820,3244,889,-2065,549
9688,-16484,2988,-631,-1449,541
8920,-15236,3252,-37,-2074,568
8144,-16516,3404,-1073,627,554
4784,-9972,4272,-628,577,568
14528,-18928,2760,2603,4816,550
9284,-14128,2784,-343,-1201,524
180,-13428,2644,-786,864,540
9572,-19412,3300,-91,-2872,565
8432,-13368,3556,-402,959,541
9372,-18996,3128,-632,-2776,535
9396,-15104,3108,13,-411,528
9340,-15820,3016,0,-1289,551
9140,-15428,3236,-21,501,533
9388,-15152,3248,434,257,524
9012,-16376,3508,2069,-2141,530
7020,-15980,3648,-3792,3087,501
8576,-15960,3228,186,-1891,564
9760,-15592,2900,-188,-4192,517
10284,-14228,3232,-594,-2284,543
9380,-14524,3296,-40,-2971,568
9040,-16076,2704,-944,-2402,542
9584,-15216,3424,-252,-2085,526
9588,-15988,3564,296,584,540
9668,-16276,3052,-201,2066,543
11424,-15432,3148,136,-32,563
8824,-15516,3264,-124,189,560
10588,-17908,3196,-450,1029,525
6884,-16560,3212,2013,420,544
8656,-15616,3152,-186,-1429,562
9360,-15548,3192,211,-2353,534
8588,-16224,3404,-294,-2095,540
9768,-15708,4100,20,-2745,553
9736,-17144,3152,147,-1386,587
3308,-12788,2376,6837,-1139,534
8232,-17396,3232,-155,-781,548
7792,-16720,3352,-280,-484,536
7872,-17148,3328,-134,-131,547
7484,-17020,3532,-101,749,526
6952,-17524,3348,0,490,546
8244,-15304,2812,-687,-711,544
4264,-19468,3628,-3970,3371,550
4432,-22752,3552,-279,-3211,582
5832,-17816,3500,283,-2939,537
5584,-17724,3468,-161,99,543
10012,-14120,3200,1069,-8920,541
8468,-15632,3236,242,-744,550
9008,-17396,3456,102,-1866,532
8428,-16700,3408,585,1703,557
9348,-18824,3144,-274,33,567
9080,-17960,3240,-162,-899,531
8948,-17948,3176,-86,-754,570
9048,-17552,3280,-65,-1006,528
9376,-17568,3212,-102,-603,545
9164,-18076,3172,-328,-436,541
9108,-17548,3256,-79,-1169,548
9152,-17392,3280,-17,-1092,544
9068,-17284,3356,-51,-982,528
8992,-17808,3212,-57,-980,549
9060,-17976,3132,-46,-978,537
9056,-17668,3144,-72,-970,558
9044,-17628,3212,-50,-1003,526
9104,-17764,3220,-51,-966,543
9048,-17796,3236,-69,-946,583
8956,-17512,3276,-73,-962,529
8944,-17720,3188,-60,-1012,544
8524,-14872,3052,2279,435,548
7472,-22484,3300,-32,-546,547
8748,-17124,3580,-267,-2109,542
9008,-17840,3212,-53,-828,526
9116,-17676,3344,-45,-972,536
9084,-17612,3252,-53,-959,562
9140,-17640,3248,-55,-932,539
9000,-17468,3344,-42,-949,539
9124,-17732,3208,-60,-947,541
9060,-17824,3072,-21,-941,537
9012,-17536,3308,-63,-923,514
9180,-17920,3116,-48,-1018,536
9044,-17820,3224,-59,-961,549
9084,-17688,3172,-61,-1005,576
9164,-17768,3112,-46,-941,562
9144,-17388,3288,-32,-964,553
9192,-17600,3372,-56,-1000,566
9100,-17532,3372,-52,-939,558
8940,-17612,3364,-52,-1009,566
9088,-17528,3180,-61,-989,551
9084,-17636,3288,-77,-981,513
9140,-17720,3240,-47,-1014,502
9076,-17576,3340,-63,-954,532
9136,-17824,3200,-37,-955,522
9056,-17680,3088,-66,-964,544
9120,-17576,3336,-46,-938,540
9112,-17596,3268,-56,-977,559
9024,-17340,3504,-64,-949,533
9008,-18308,3180,-22,-1156,537
8996,-17744,3220,-62,-777,542
9104,-17756,3216,-50,-997,544
9040,-17576,3456,-80,-970,550
9148,-17836,3248,-44,-984,540
9016,-17220,3308,-52,-1000,530
9056,-17656,3188,-69,-987,553
9128,-17500,3360,-56,-1002,538
9196,-17900,3188,-77,-937,548
9136,-17700,3264,-58,-996,548
9148,-17924,3208,-44,-985,540
9124,-17756,3260,-71,-1154,553
9048,-17860,3120,-58,-903,573
9104,-17828,3232,-52,-943,549
9088,-17440,3340,-52,-965,569
9140,-17712,3204,-48,-970,560
9044,-17764,3244,-56,-948,535
9100,-17640,3132,-36,-940,546
9068,-17580,3264,-60,-990,563
9052,-17732,3220,-57,-978,557
9056,-17568,3332,-39,-979,557
9164,-17916,3264,-39,-964,535
9036,-17840,3212,-49,-979,553
9168,-17920,3192,-45,-986,547
9056,-17548,3292,-69,-949,542
9132,-17668,3204,-54,-963,563
9028,-17592,3296,-60,-984,529
9136,-17648,3244,-77,-971,526
9052,-17312,3320,-48,-913,519
9028,-18112,3176,-48,-955,544
9072,-17872,3136,-55,-1040,534
9164,-17604,3264,-44,-1003,547
8992,-17860,3288,-125,-1392,552
9076,-17844,3264,-44,-1042,542
9108,-17724,3228,-58,-968,555
9012,-17652,3236,-55,-1004,511
9044,-17596,3320,-54,-967,541
9112,-17768,3216,-63,-975,553
9068,-17840,3192,-44,-979,558
9084,-17412,3408,-56,-1015,545
9060,-17580,3260,-56,-955,552
9140,-17564,3236,-54,-970,550
9096,-17856,3352,-51,-990,562
9148,-17896,3232,-39,-931,562
9172,-17552,3288,-38,-951,561
9056,-17636,3332,-58,-990,535
9168,-17612,3340,-84,-958,549
9032,-17620,3312,-62,-983,542
9108,-17652,3324,-59,-975,536
9048,-17548,3300,-42,-973,524
9204,-17972,3248,-46,-960,544
8996,-17488,3336,-56,-967,526
9120,-17740,3224,-41,-976,570
8984,-17460,3268,-49,-989,537
9124,-17656,3372,-61,-943,540
9120,-17704,3204,-48,-976,533
9096,-17516,3268,-41,-950,535
9152,-17812,3180,-42,-1000,552
9044,-17668,3272,-49,-948,533
9124,-17524,3152,-50,-945,517
9036,-17836,3220,-47,-985,562
9048,-17604,3324,-53,-966,541
9000,-17792,3288,-51,-958,567
9088,-17524,3296,-60,-962,546
9012,-17492,3292,-55,-967,539
9076,-17844,3244,-69,-947,538
9088,-17776,3296,-55,-979,539
9040,-17516,3344,-58,-955,550
9036,-17668,3248,-67,-975,552
9100,-17784,3384,-63,-970,544
9096,-17584,3252,-46,-980,523
9120,-17728,3144,-48,-814,544
9008,-17708,3276,-57,-976,530
9048,-17504,3272,-59,-986,534
8932,-17460,3400,-12,-707,572
9112,-17604,3120,-55,-1014,541
9084,-17668,3268,-49,-975,571
9116,-17668,3216,-59,-912,569
9220,-17252,3388,-62,-1024,567
9144,-17472,3280,-62,-979,545
9008,-17784,3252,-62,-1043,550
9024,-17836,3188,-73,-995,557
9108,-17604,3236,-76,-971,538
9164,-17284,3392,-16,-1141,545
9088,-17400,3288,-57,-957,581
8988,-17528,3384,-69,-1003,567
9160,-17628,3240,-41,-965,532
9112,-17632,3276,-57,-1004,545
9084,-17548,3332,-71,-903,550
8996,-17340,3208,-81,-972,565
9112,-17484,3432,-43,-999,574
9100,-17764,3132,-41,-976,530
9064,-17488,3260,-61,-1084,567
9144,-17772,3244,-91,-911,573
9020,-17592,3348,-25,-935,570
9108,-18100,3176,-50,-943,551
8960,-17560,3276,-31,-1052,530
8972,-17400,3360,-60,-891,552
ax,ay,az,gx,gy,gz
9076,-17688,3140,-40,-968,527
9056,-17492,3216,-50,-1045,530
9104,-17732,3236,-69,-985,544
9240,-17548,3312,-59,-980,520
9080,-17568,3244,-50,-1000,545
9100,-17740,3220,-54,-1018,545
9108,-17800,3312,-48,-958,543
9120,-17476,3212,-77,-953,551
9148,-17816,3060,-78,-1021,531
8916,-17724,3352,-54,-978,534
9036,-17460,3284,-59,-938,558
9196,-17708,3208,-93,-983,579
9084,-17848,3284,-49,-1022,507
8876,-17932,3292,-64,-718,554
9204,-17872,3260,-72,-869,519
9040,-17624,3264,-68,-1019,538
9076,-17816,3104,-67,-1002,560
9068,-17396,3260,-71,-963,542
9148,-17656,3288,-55,-976,546
9072,-17772,3152,-52,-990,551
9100,-17956,3144,-65,-974,553
9080,-17668,3268,-48,-997,562
9008,-17668,3216,-46,-932,522
9024,-17808,3204,-35,-986,529
9160,-17848,3180,-66,-956,539
9144,-17628,3100,-28,-994,539
9076,-17436,3276,-22,-959,544
9124,-17908,3240,-51,-967,538
9000,-17616,3260,-96,-957,548
9152,-17708,3204,-54,-989,553
9168,-17844,3220,-63,-965,559
9060,-17524,3308,-63,-948,521
9020,-17508,3284,-52,-982,550
9072,-17452,3280,-43,-966,590
9036,-17420,3368,-61,-969,535
9076,-17536,3256,-56,-962,566
9064,-17780,3128,-63,-957,558
9052,-17644,3232,-83,-978,560
9172,-17736,3168,-65,-973,561
9056,-17532,3276,-44,-956,526
9020,-17616,3280,-59,-964,548
9056,-17704,3296,-37,-968,601
9088,-17836,3244,-48,-953,527
9080,-17608,3348,-26,-990,552
9004,-17772,3372,-61,-980,525
9152,-17596,3364,-49,-967,541
9084,-17656,3256,-68,-986,536
9064,-17428,3284,-65,-970,529
9084,-17900,3264,-43,-968,547
9068,-17800,3168,-50,-965,535
9128,-17768,3256,-78,-979,546
9064,-17584,3168,-36,-964,541
9168,-17656,3292,-61,-989,554
9092,-17696,3220,-48,-989,563
9092,-17800,3240,-57,-974,570
9040,-17520,3284,-67,-998,541
9128,-17688,3300,-59,-967,519
9064,-17604,3280,-50,-994,553
9160,-17632,3208,-52,-980,555
9080,-17956,3216,-53,-956,541
9000,-17776,3164,-40,-1003,526
8996,-17700,3324,-65,-975,528
9004,-17592,3288,-66,-987,528
9060,-18048,3192,-50,-1001,530
9092,-17632,3224,-36,-962,543
9156,-17684,3340,-64,-980,550
9056,-17464,3320,-80,-915,523
9116,-17716,3276,-36,-958,558
9096,-17852,3244,-46,-927,552
9168,-17488,3368,-70,-950,561
8900,-17504,3216,-52,-1063,539
9028,-18000,3196,-45,-956,531
9096,-17700,3236,-44,-969,517
9084,-17520,3372,-45,-957,545
9072,-17400,3384,-41,-953,519
9064,-17792,3244,-38,-973,546
9056,-17604,3180,-59,-981,559
9084,-17792,3156,-55,-976,558
9080,-17764,3136,-20,-957,559
9020,-17912,3152,-33,-1006,570
9112,-17992,3124,-43,-967,559
9080,-17996,3196,-62,-961,551
9100,-18000,3160,-35,-951,550
9032,-17508,3296,-54,-973,567
9220,-17836,3244,-48,-967,520
9148,-17796,3248,-42,-975,512
9048,-17732,3164,-71,-981,560
9076,-17636,3272,-45,-975,527
9084,-17468,3344,-65,-1031,518
9060,-17772,3252,-5,-948,567
9040,-17644,3252,-59,-958,556
9108,-17624,3432,-59,-943,543
9092,-17336,3384,-63,-990,540
9000,-17744,3188,-59,-943,556
9088,-17316,3268,-41,-954,550
9076,-17792,3196,-66,-979,556
9144,-17808,3200,-64,-976,520
9076,-17536,3308,-41,-982,539
9076,-17516,3220,-24,-981,572
9056,-17576,3260,-38,-977,546
9136,-17692,3220,-45,-986,546
9112,-17564,3228,-49,-974,545
9000,-17856,3244,-65,-961,551
9080,-17644,3200,-51,-982,557
9036,-17696,3208,-29,-985,531
9068,-17612,3300,-73,-962,542
9076,-17472,3424,-39,-964,582
9108,-17940,3080,-55,-979,545
9120,-17556,3368,-57,-977,556
9064,-17588,3296,-39,-954,540
9236,-17524,3248,-60,-972,575
8996,-17700,3192,-58,-1008,520
9060,-17808,3080,-45,-967,541
9012,-17772,3180,-54,-971,567
9012,-17904,3176,-65,-965,537
9084,-17444,3436,-49,-953,542
9088,-17476,3324,-44,-998,536
9044,-17660,3272,-41,-962,538
9060,-17856,3132,-59,-984,535
9072,-17852,3208,-48,-995,533
9172,-17636,3260,-52,-960,533
9020,-17624,3312,-53,-965,548
9044,-17384,3336,-60,-952,574
9008,-17656,3220,-56,-965,540
9108,-17664,3288,-30,-972,537
9196,-17744,3164,-28,-973,565
8988,-17756,3224,-55,-953,525
9052,-17612,3176,-43,-954,545
9164,-17772,3344,-31,-986,554
9040,-17736,3168,-71,-984,529
9084,-17916,3148,-43,-995,560
9100,-17560,3312,-57,-961,545
9108,-17672,3236,-51,-962,547
9160,-17948,3120,-55,-975,534
9076,-17812,3184,-46,-959,537
9020,-17580,3244,-49,-953,556
9100,-17756,3272,-56,-969,556
9128,-17772,3236,-75,-984,537
9072,-17844,3108,-49,-978,553
9156,-17512,3252,-68,-960,574
9048,-17636,3344,-24,-1034,528
9092,-17816,3152,-59,-962,575
9096,-17816,3232,-38,-973,533
9032,-17760,3164,-62,-947,541
9088,-17652,3332,-64,-967,547
9156,-17600,3328,-36,-907,541
9048,-17676,3212,-33,-985,535
9120,-17688,3388,-25,-940,565
9088,-17460,3380,-51,-983,592
9032,-17720,3292,-61,-964,559
9120,-17588,3344,-59,-953,534
9048,-17568,3348,-57,-972,559
9048,-17564,3216,-49,-961,557
9084,-17512,3276,-68,-982,526
9152,-17520,3356,-47,-968,553
9112,-17352,3364,-29,-948,551
9116,-17752,3252,-76,-1004,545
9144,-17912,3196,-52,-977,536
9176,-17748,3288,-62,-985,526
9004,-17420,3312,-47,-973,552
9060,-18004,3144,-52,-971,529
9144,-17724,3204,-42,-957,571
8984,-17824,3228,-69,-991,522
9208,-17956,3244,-55,-977,545
9104,-17708,3184,-56,-952,560
9028,-17932,3204,-48,-989,541
9184,-17632,3140,-64,-978,552
9012,-17688,3392,-26,-957,558
9092,-17824,3116,-32,-955,575
9076,-17652,3200,-71,-974,546
9084,-17660,3244,-56,-943,554
8992,-17792,3268,-41,-987,561
9200,-17640,3232,-52,-1006,558
9136,-17836,3224,-50,-971,558
9168,-17672,3308,-65,-954,533
9072,-17648,3308,-64,-962,523
9040,-17660,3256,-25,-972,554
8976,-17644,3192,-45,-967,546
9104,-17852,3280,-42,-955,544
9088,-17892,3116,-55,-967,524
9044,-17732,3160,-52,-966,550
9100,-17732,3332,-61,-994,525
9148,-17732,3392,-53,-969,560
8980,-17664,3268,-47,-1001,566
9068,-17948,3252,-39,-987,535
9100,-17700,3228,-51,-967,552
9120,-17600,3348,-52,-976,548
9108,-17740,3220,-60,-980,538
9144,-18004,3124,-46,-960,546
9020,-17784,3204,-42,-961,575
9180,-17628,3300,-40,-988,532
9116,-17736,3228,-55,-980,564
9124,-17560,3264,-44,-962,529
9112,-17644,3172,-40,-954,590
9108,-17872,3248,-54,-965,549
9168,-17648,3424,-41,-961,558
9048,-17948,3180,-79,-948,554
9108,-17980,3188,-55,-950,573
9052,-17680,3296,-61,-953,526
9088,-17508,3316,-49,-974,552
9084,-17764,3244,-61,-956,537
9196,-17912,3272,-75,-975,567
8984,-17748,3312,-74,-948,539
9024,-18164,3144,-55,-1069,573
9100,-17780,3268,-31,-835,575
9032,-17832,3172,-26,-958,531
9088,-17576,3336,-56,-997,559
9000,-17396,3208,-53,-990,537
9084,-17624,3196,-51,-966,522
9120,-17696,3312,-35,-970,537
9032,-17768,3160,-40,-970,541
8992,-17724,3264,-65,-967,542
9084,-17904,3220,-40,-976,568
9112,-17884,3140,-75,-952,523
8980,-17672,3224,-50,-982,557
9092,-17976,3152,-43,-967,577
9128,-17744,3176,-47,-944,567
9052,-17580,3464,-76,-969,521
9108,-17828,3348,-52,-957,561
9052,-17572,3412,-42,-970,531
9144,-17668,3296,-50,-963,539
9060,-17716,3232,-52,-985,537
9088,-17840,3208,-71,-910,541
9020,-17740,3276,-43,-968,531
9072,-17800,3072,-55,-996,556
9128,-17648,3256,-74,-943,518
9120,-17588,3172,-50,-985,573
9064,-17448,3348,-31,-966,530
9084,-17832,3308,-58,-963,563
9072,-17872,3108,-43,-957,563
8984,-17784,3188,-58,-1005,529
9128,-17872,3168,-53,-988,544
9092,-17536,3260,-67,-941,561
9092,-17712,3380,-55,-974,555
9088,-17896,3100,-58,-945,526
9136,-17476,3336,-52,-978,570
9072,-17840,3208,-37,-980,543
9080,-17828,3212,-56,-968,532
9080,-17560,3360,-46,-960,532
9092,-17800,3280,-77,-983,552
9028,-17892,3132,-49,-954,524
8992,-17448,3412,-39,-970,553
9132,-17640,3308,-44,-964,556
9180,-17784,3192,-54,-965,576
9056,-17576,3304,-44,-973,571
8928,-17560,3324,-78,-957,560
9092,-17736,3356,-37,-972,529
9108,-17936,3132,-42,-977,568
9128,-17660,3312,-44,-976,558
9096,-17856,3188,-36,-951,550
9100,-17524,3240,-45,-963,554
8936,-17720,3272,-30,-961,559
9088,-17480,3304,-42,-953,544
9100,-17856,3280,-50,-973,521
9032,-17744,3240,-68,-962,551
9124,-17828,3184,-63,-995,545
9012,-17860,3312,-46,-962,569
9008,-17460,3412,-66,-981,528
9064,-17680,3216,-44,-958,506
9172,-17768,3252,-55,-959,544
9116,-17544,3380,-56,-976,528
9064,-17680,3284,-61,-965,538
9052,-17708,3168,-47,-987,543
9056,-17408,3320,-21,-993,563
9128,-17812,3168,-60,-945,521
8952,-17824,3208,-32,-966,555
9108,-17492,3260,-69,-985,533
9172,-17760,3104,-45,-904,521
9052,-17580,3284,-68,-965,552
8996,-18056,3096,-58,-974,565
9172,-17884,3192,-59,-991,520
9020,-17604,3292,-67,-1000,547
9092,-17808,3252,-61,-964,536
9228,-17616,3208,-38,-969,561
9068,-17784,3236,-62,-993,558
8956,-17908,3164,-69,-974,546
9056,-17232,3296,-50,-947,547
9064,-17960,3392,-46,-980,554
9044,-17396,3284,-57,-964,555
9112,-17608,3264,-48,-971,558
9136,-17820,3180,-72,-982,553
9076,-17568,3224,-35,-982,540
9008,-17212,3312,-67,-950,534
8988,-17464,3352,-34,-987,550
9072,-17592,3156,-61,-960,542
9060,-17640,3248,-62,-955,533
9064,-17952,3132,-68,-979,558
9092,-17892,3108,-66,-975,547
9104,-17536,3336,-45,-978,531
9088,-17856,3228,-74,-951,574
9148,-17564,3288,-41,-967,544
9016,-17860,3260,-60,-976,541
9072,-17440,3240,-45,-959,539
9152,-17780,3296,-45,-967,550
9072,-17484,3380,-61,-956,541
9056,-17480,3440,-39,-977,571
9020,-17580,3276,-57,-942,548
9060,-17676,3232,-58,-983,563
9036,-17796,3200,-44,-968,564
9076,-17712,3312,-50,-975,546
9128,-17524,3384,-69,-945,551
9020,-17504,3316,-45,-961,560
9004,-17656,3192,-34,-985,548
9064,-17816,3296,-54,-954,545
9084,-17608,3336,-58,-976,567
9160,-17756,3236,-40,-961,551
9032,-17820,3068,-79,-975,562
9132,-17668,3284,-25,-967,545
9080,-17732,3220,-51,-975,553
9108,-17376,3268,-55,-967,548
9092,-17644,3208,-48,-971,534
9092,-17604,3204,-41,-954,548
9016,-17764,3244,-58,-971,582
9072,-17624,3332,-43,-998,547
9048,-17796,3244,-56,-971,535
9040,-17632,3364,-61,-964,572
9072,-17584,3224,-58,-989,549
9200,-17428,3336,-43,-955,535
9000,-17628,3192,-67,-953,517
9076,-17520,3352,-67,-972,525
9104,-17564,3280,-55,-968,534
9096,-17696,3264,-47,-978,525
9116,-17604,3372,-49,-963,540
9144,-17836,3192,-40,-977,549
9076,-17632,3212,-60,-959,557
9144,-17948,3196,-64,-961,568
9040,-17628,3244,-54,-993,576
9072,-17804,3208,-30,-968,542
9180,-17548,3248,-20,-950,543
9032,-17320,3412,-69,-974,519
9108,-17744,3132,-60,-977,539
9060,-17744,3208,-55,-995,525
9064,-17416,3332,-62,-967,538
9004,-17968,3112,-47,-987,550
9124,-17816,3280,-55,-975,576
9056,-17684,3288,-34,-968,535
9104,-17608,3164,-38,-951,525
9032,-17828,3208,-46,-1007,580
9156,-17716,3232,-51,-970,557
9012,-17932,3280,-42,-964,565
9072,-17540,3220,-42,-970,551
9112,-17752,3204,-56,-961,569
8996,-17708,3184,-60,-940,565
9200,-17416,3356,-57,-978,544
9144,-17512,3164,-37,-971,558
9124,-17896,3268,-51,-964,531
9004,-17808,3156,-45,-978,549
9068,-17580,3328,-74,-963,547
9036,-17908,3204,-48,-982,564
9080,-17732,3248,-50,-972,539
9072,-17820,3260,-51,-971,560
9140,-17664,3300,-44,-991,531
9120,-17712,3244,-32,-952,529
8964,-17820,3232,-47,-961,543
9100,-17552,3296,-55,-986,546
9104,-17908,3196,-31,-983,557
9080,-17416,3276,-45,-956,563
9092,-17732,3304,-65,-978,535
9104,-17904,3188,-61,-949,552
9096,-17760,3300,-44,-943,555
9132,-17744,3204,-46,-968,538
9084,-17708,3208,-42,-963,550
9096,-17720,3300,-31,-991,556
9132,-17684,3200,-67,-970,563
9048,-17804,3260,-37,-985,533
9188,-17728,3252,-23,-953,552
9068,-18080,3268,-48,-994,530
9044,-17580,3172,-49,-959,534
8972,-17732,3272,-39,-983,560
9128,-17732,3280,-58,-993,532
9112,-17872,3204,-47,-971,578
9116,-17696,3296,-58,-974,536
8996,-17732,3296,-61,-973,545
9084,-17812,3188,-55,-963,554
9092,-17880,3168,-70,-987,549
9032,-17580,3372,-43,-949,530
9000,-17748,3280,-59,-979,501
9044,-17568,3364,-38,-954,556
9168,-17216,3464,-51,-971,535
9156,-17848,3212,-54,-970,549
9060,-17604,3236,-57,-963,531
9072,-17736,3260,-55,-987,551
9040,-17432,3260,-63,-962,589
9136,-17504,3220,-52,-1000,544
9104,-17668,3224,-36,-981,542
9060,-17752,3308,-72,-975,559
9128,-17916,3288,-63,-965,530
9028,-17668,3228,-65,-968,540
9088,-17480,3368,-81,-981,557
9096,-17944,3156,-57,-985,551
9104,-17560,3280,-54,-964,531
9116,-17608,3220,-56,-956,543
9064,-17792,3136,-47,-985,570
9096,-17516,3304,-65,-956,559
9084,-17580,3336,-36,-958,531
9144,-17680,3316,-46,-967,561
9052,-17628,3344,-22,-941,533
9072,-17580,3312,-41,-962,552
9196,-17456,3272,-63,-975,558
9128,-17492,3332,-56,-970,526
9140,-17568,3296,-39,-992,586
9192,-17552,3336,-32,-957,565
9064,-17496,3256,-52,-965,555
9164,-17752,3224,-52,-951,550
9048,-17740,3268,-24,-981,557
9032,-17928,3228,-45,-984,512
8984,-17540,3252,-51,-953,545
9152,-17940,3208,-41,-966,554
9104,-17932,3292,-56,-978,588
9060,-17880,3232,-61,-981,553
9036,-17728,3288,-53,-951,559
9016,-17328,3324,-65,-990,559
9080,-17872,3200,-46,-983,535
9108,-17516,3256,-44,-983,551
9180,-17756,3236,-38,-989,561
9168,-17820,3116,-77,-985,539
9064,-17636,3128,-49,-995,568
9104,-17624,3268,-35,-970,565
9156,-17716,3192,-66,-949,567
9100,-17672,3400,-58,-995,546
9076,-17748,3120,-28,-968,531
9072,-17728,3240,-51,-952,532
9048,-17676,3200,-42,-973,559
9104,-17760,3080,-55,-978,548
9000,-17692,3368,-52,-960,535
9008,-17736,3240,-31,-980,539
9076,-17600,3188,-65,-968,523
9084,-17752,3244,-52,-966,548
9152,-17780,3088,-62,-970,519
9084,-17676,3216,-85,-969,559
9160,-17728,3296,-48,-960,566
8980,-17564,3324,-47,-999,554
9104,-17640,3336,-26,-980,535
9044,-17716,3268,-24,-990,543
9124,-18076,3080,-70,-997,567
8992,-17712,3196,-37,-978,552
9096,-17644,3280,-47,-937,566
9124,-17632,3332,-57,-1000,573
9108,-17704,3236,-26,-950,560
9116,-17608,3236,-47,-984,566
9028,-17612,3356,-36,-960,537
9076,-17812,3204,-53,-977,557
9084,-17672,3280,-63,-950,569
9052,-17556,3236,-50,-997,579
9120,-17956,3164,-54,-970,557
9068,-17560,3276,-75,-956,499
9132,-17564,3268,-48,-974,535
9136,-17612,3216,-57,-983,548
9060,-17612,3264,-52,-953,553
9084,-17944,3200,-51,-977,577
9116,-17684,3340,-56,-956,536
9084,-17552,3240,-58,-967,554
9064,-17684,3272,-59,-972,546
9128,-17796,3184,-64,-949,518
9052,-17276,3368,-40,-964,549
9104,-17668,3160,-63,-983,557
9116,-17596,3264,-60,-1000,539
9076,-17576,3280,-56,-970,554
9108,-17584,3348,-53,-975,560
9048,-17780,3348,-59,-984,524
9036,-17848,3172,-29,-962,547
9108,-17680,3272,-56,-982,533
9044,-17608,3340,-67,-971,521
9008,-17568,3324,-53,-996,564
9232,-17816,3180,-69,-973,543
9188,-18060,3112,-51,-971,538
9092,-17768,3300,-63,-985,564
9140,-18084,3232,-67,-937,548
9080,-17916,3324,-59,-963,544
9040,-17600,3240,-43,-993,528
9076,-17624,3268,-57,-981,569
9076,-17768,3244,-64,-988,579
9164,-17516,3440,-44,-955,574
9108,-17640,3276,-50,-981,513
9168,-17660,3188,-48,-958,548
9076,-17648,3324,-76,-938,547
9068,-17980,3152,-46,-979,557
9124,-17620,3424,-47,-973,540
9072,-17812,3240,-69,-979,523
9048,-17860,3104,-41,-959,564
9136,-17708,3240,-65,-1006,553
9104,-17736,3196,-47,-981,537
9156,-17800,3304,-30,-952,534
9028,-17656,3280,-38,-974,573
9008,-17796,3108,-62,-984,526
9040,-17804,3200,-63,-976,552
9216,-17884,3300,-34,-965,548
9064,-17680,3344,-57,-990,530
9136,-17684,3284,-48,-970,542
9044,-17536,3328,-20,-964,555
9040,-17752,3360,-54,-986,552
9072,-17620,3208,-57,-963,584
9076,-17560,3332,-56,-986,560
9136,-17872,3236,-58,-957,554
9080,-17488,3252,-54,-976,529
9020,-17664,3260,-61,-996,536
9148,-17920,3176,-30,-964,537
9020,-17672,3240,-33,-975,565
9184,-17488,3320,-68,-988,546
9084,-17788,3260,-35,-952,542
9068,-17780,3220,-54,-987,561
9064,-17536,3368,-76,-953,550
9040,-17684,3224,-41,-976,543
9140,-17960,3232,-52,-956,572
9144,-17748,3320,-80,-955,541
9088,-17644,3220,-41,-967,536
8996,-18120,3156,-73,-969,556
9104,-18168,3036,-30,-989,553
9056,-17876,3140,-41,-975,550
9072,-17764,3336,-55,-969,537
9112,-17640,3208,-37,-976,545
9156,-17868,3176,-72,-961,558
9116,-17884,3248,-58,-956,545
9028,-17692,3200,-49,-979,542
9020,-17900,3120,-49,-986,545
9136,-17688,3256,-34,-993,586
9100,-17532,3276,-62,-962,599
9060,-17864,3096,-29,-974,545
9164,-17756,3348,-71,-960,578
9060,-17552,3260,-41,-979,564
9088,-17796,3212,-53,-978,587
9040,-17764,3116,-61,-952,561
9088,-17816,3292,-53,-982,522
9128,-17892,3312,-47,-973,554
9124,-17732,3260,-30,-982,532
8972,-17592,3172,-45,-991,556
9112,-17780,3216,-55,-978,513
9048,-17740,3236,-68,-961,551
9168,-17656,3316,-42,-963,568
9076,-17408,3380,-58,-974,553
9032,-18056,3216,-57,-962,574
8984,-17632,3232,-51,-1003,552
8996,-17732,3196,-57,-969,531
9072,-17696,3200,-42,-986,545
9072,-17596,3328,-70,-936,534
9056,-17536,3312,-57,-984,538
9148,-17944,3220,-34,-994,538
9040,-17604,3284,-40,-980,547
9168,-17664,3264,-45,-975,553
9012,-17624,3216,-67,-990,556
9024,-17816,3088,-70,-988,561
9012,-17812,3252,-74,-972,579
9076,-17600,3284,-24,-978,559
9120,-17504,3248,-75,-955,528
8988,-17728,3344,-71,-1700,539
8880,-17616,3280,8,-880,552
9116,-17668,3248,-30,-1025,525
9092,-17500,3276,-31,-994,548
9068,-17620,3336,-59,-1094,531
9360,-17324,3228,-126,-918,550
8936,-17720,3420,-7,-748,553
9464,-17568,3104,-81,-620,518
9252,-18156,3208,-44,-826,562
9072,-17644,3212,-31,-876,567
8952,-17604,3392,117,-979,512
8996,-18156,3272,-13,-560,554
8964,-17900,3156,-43,-950,548
9180,-17684,3168,-32,-1108,555
9048,-17824,3260,-32,-962,541
7596,-17328,3020,221,2347,562
9076,-17796,3112,-25,-1046,530
9204,-17696,3084,-63,-1066,569
9124,-17448,3360,-74,-948,550
9024,-17432,3316,-60,-904,534
9060,-17688,3288,-3,-1011,510
9260,-17696,3276,-50,-1004,573
9128,-17600,3376,-36,-910,536
9060,-17868,3228,-56,-992,557
9108,-17756,3172,-60,-1017,558
9112,-17552,3268,-42,-919,547
